Folder: out/Scaling_Pyrolysis

Note: Scaling_Pyrolysis/FSRI_Particleboard_git.txt
FDS-6.8.0-1573-g59ce688-master

Note: Scaling_Pyrolysis/FSRI_PET_git.txt
FDS-6.8.0-1412-g4125a9b-master

Note: Scaling_Pyrolysis/FSRI_Wool_Rug_git.txt
FDS-6.8.0-1569-gcd1e053-master

Note: Scaling_Pyrolysis/JH_Acrylic_git.txt
FDS-6.8.0-1424-g71e719e-master

Note: Scaling_Pyrolysis/RISE_80_wool__20__Nylon_Glue_Plywood-22m_git.txt
FDS-6.8.0-1449-gb93cfc1-master

Note: Scaling_Pyrolysis/RISE_polyolefin-pp-9_git.txt
FDS-6.8.0-1530-gd4ec585-master

File: FSRI_XPS_Foam_Board_devc.csv
s,C,kW/m2,C,kW/m2,C,kW/m2
Time,"WALL TEMPERATURE-CONE_27p07_025","HRRPUA-CONE_27p07_025","WALL TEMPERATURE-CONE_27p07_050","HRRPUA-CONE_27p07_050","WALL TEMPERATURE-CONE_27p07_075","HRRPUA-CONE_27p07_075"
 0.000E+00, 2.700E+01, 0.000E+00, 2.700E+01, 0.000E+00, 2.700E+01, 0.000E+00
 1.000E+01, 4.439E+02, 0.000E+00, 6.729E+02, 0.000E+00, 8.614E+02, 6.203E+01
 2.000E+01, 4.828E+02, 0.000E+00, 6.497E+02, 1.209E+01, 7.602E+02, 5.990E+02
 3.000E+01, 4.899E+02, 0.000E+00, 6.549E+02, 2.655E+02, 7.644E+02, 1.088E+03
 4.000E+01, 4.937E+02, 0.000E+00, 6.577E+02, 6.265E+02, 7.667E+02, 5.654E+02
 5.000E+01, 4.956E+02, 0.000E+00, 6.591E+02, 7.591E+02, 7.678E+02, 1.407E+02
 6.000E+01, 4.968E+02, 0.000E+00, 6.600E+02, 5.375E+02, 7.685E+02, 3.462E+01
 7.000E+01, 4.977E+02, 0.000E+00, 6.606E+02, 1.911E+02, 7.691E+02, 5.654E+00
 8.000E+01, 4.984E+02, 0.000E+00, 6.611E+02, 4.227E+01, 7.695E+02, 8.069E-01
 9.000E+01, 4.989E+02, 0.000E+00, 6.616E+02, 9.110E+00, 7.699E+02, 0.000E+00
 1.000E+02, 4.994E+02, 0.000E+00, 6.619E+02, 3.858E+00, 7.702E+02, 0.000E+00
 1.100E+02, 4.998E+02, 0.000E+00, 6.622E+02, 2.672E+00, 7.704E+02, 0.000E+00
 1.200E+02, 5.002E+02, 0.000E+00, 6.625E+02, 1.580E+00, 7.707E+02, 0.000E+00
 1.300E+02, 5.005E+02, 0.000E+00, 6.627E+02, 1.021E+00, 7.709E+02, 0.000E+00
 1.400E+02, 5.007E+02, 0.000E+00, 6.630E+02, 6.344E-01, 7.711E+02, 0.000E+00
 1.500E+02, 5.010E+02, 0.000E+00, 6.632E+02, 3.122E-01, 7.712E+02, 0.000E+00
 1.600E+02, 5.012E+02, 7.250E+00, 6.633E+02, 1.909E-01, 7.714E+02, 0.000E+00
 1.700E+02, 5.014E+02, 4.825E+01, 6.635E+02, 8.366E-02, 7.715E+02, 0.000E+00
 1.800E+02, 5.016E+02, 1.471E+02, 6.636E+02, 4.293E-02, 7.716E+02, 0.000E+00
 1.900E+02, 5.018E+02, 3.235E+02, 6.638E+02, 5.651E-02, 7.717E+02, 0.000E+00
 2.000E+02, 5.019E+02, 5.229E+02, 6.639E+02, 7.127E-02, 7.718E+02, 0.000E+00
 2.100E+02, 5.021E+02, 5.475E+02, 6.640E+02, 9.608E-02, 7.719E+02, 0.000E+00
 2.200E+02, 5.022E+02, 4.064E+02, 6.641E+02, 1.231E-01, 7.720E+02, 0.000E+00
 2.300E+02, 5.023E+02, 2.352E+02, 6.642E+02, 1.244E-01, 7.721E+02, 0.000E+00
 2.400E+02, 5.024E+02, 1.219E+02, 6.643E+02, 7.194E-02, 7.721E+02, 0.000E+00
 2.500E+02, 5.025E+02, 5.799E+01, 6.643E+02, 1.861E-02, 7.722E+02, 0.000E+00
 2.600E+02, 5.026E+02, 3.037E+01, 6.644E+02, 0.000E+00, 7.723E+02, 0.000E+00
 2.700E+02, 5.027E+02, 1.747E+01, 6.645E+02, 0.000E+00, 7.723E+02, 0.000E+00
 2.800E+02, 5.028E+02, 1.306E+01, 6.645E+02, 0.000E+00, 7.724E+02, 0.000E+00
 2.900E+02, 5.028E+02, 8.718E+00, 6.646E+02, 0.000E+00, 7.724E+02, 0.000E+00
 3.000E+02, 5.029E+02, 4.376E+00, 6.646E+02, 0.000E+00, 7.725E+02, 0.000E+00
 3.100E+02, 5.030E+02, 1.613E+00, 6.647E+02, 0.000E+00, 7.725E+02, 0.000E+00
 3.200E+02, 5.030E+02, 1.156E+00, 6.647E+02, 0.000E+00, 7.726E+02, 0.000E+00
 3.300E+02, 5.031E+02, 7.193E-01, 6.648E+02, 0.000E+00, 7.726E+02, 0.000E+00
 3.400E+02, 5.032E+02, 2.826E-01, 6.648E+02, 0.000E+00, 7.726E+02, 0.000E+00
 3.500E+02, 5.032E+02, 4.729E-03, 6.649E+02, 0.000E+00, 7.727E+02, 0.000E+00
 3.600E+02, 5.033E+02, 0.000E+00, 6.649E+02, 0.000E+00, 7.727E+02, 0.000E+00
 3.700E+02, 5.033E+02, 0.000E+00, 6.649E+02, 0.000E+00, 7.727E+02, 0.000E+00
 3.800E+02, 5.033E+02, 0.000E+00, 6.650E+02, 0.000E+00, 7.728E+02, 0.000E+00
 3.900E+02, 5.034E+02, 0.000E+00, 6.650E+02, 0.000E+00, 7.728E+02, 0.000E+00
 4.000E+02, 5.034E+02, 0.000E+00, 6.650E+02, 0.000E+00, 7.728E+02, 0.000E+00
 4.100E+02, 5.034E+02, 0.000E+00, 6.651E+02, 0.000E+00, 7.728E+02, 0.000E+00
 4.200E+02, 5.035E+02, 0.000E+00, 6.651E+02, 0.000E+00, 7.728E+02, 0.000E+00
 4.300E+02, 5.035E+02, 0.000E+00, 6.651E+02, 0.000E+00, 7.729E+02, 0.000E+00
 4.400E+02, 5.035E+02, 0.000E+00, 6.651E+02, 0.000E+00, 7.729E+02, 0.000E+00
 4.500E+02, 5.036E+02, 0.000E+00, 6.652E+02, 0.000E+00, 7.729E+02, 0.000E+00
 4.600E+02, 5.036E+02, 0.000E+00, 6.652E+02, 0.000E+00, 7.729E+02, 0.000E+00
 4.700E+02, 5.036E+02, 0.000E+00, 6.652E+02, 0.000E+00, 7.729E+02, 0.000E+00
 4.800E+02, 5.036E+02, 0.000E+00, 6.652E+02, 0.000E+00, 7.730E+02, 0.000E+00
 4.900E+02, 5.037E+02, 0.000E+00, 6.652E+02, 0.000E+00, 7.730E+02, 0.000E+00
 5.000E+02, 5.037E+02, 0.000E+00, 6.652E+02, 0.000E+00, 7.730E+02, 0.000E+00
 5.100E+02, 5.037E+02, 0.000E+00, 6.653E+02, 0.000E+00, 7.730E+02, 0.000E+00
 5.200E+02, 5.037E+02, 0.000E+00, 6.653E+02, 0.000E+00, 7.730E+02, 0.000E+00
 5.300E+02, 5.037E+02, 0.000E+00, 6.653E+02, 0.000E+00, 7.730E+02, 0.000E+00
 5.400E+02, 5.037E+02, 0.000E+00, 6.653E+02, 0.000E+00, 7.730E+02, 0.000E+00
 5.500E+02, 5.038E+02, 0.000E+00, 6.653E+02, 0.000E+00, 7.730E+02, 0.000E+00
 5.600E+02, 5.038E+02, 0.000E+00, 6.653E+02, 0.000E+00, 7.730E+02, 0.000E+00
 5.700E+02, 5.038E+02, 0.000E+00, 6.653E+02, 0.000E+00, 7.731E+02, 0.000E+00
 5.800E+02, 5.038E+02, 0.000E+00, 6.653E+02, 0.000E+00, 7.731E+02, 0.000E+00
 5.900E+02, 5.038E+02, 0.000E+00, 6.653E+02, 0.000E+00, 7.731E+02, 0.000E+00
 6.000E+02, 5.038E+02, 0.000E+00, 6.654E+02, 0.000E+00, 7.731E+02, 0.000E+00
 6.100E+02, 5.038E+02, 0.000E+00, 6.654E+02, 0.000E+00, 7.731E+02, 0.000E+00
 6.200E+02, 5.038E+02, 0.000E+00, 6.654E+02, 0.000E+00, 7.731E+02, 0.000E+00
 6.300E+02, 5.039E+02, 0.000E+00, 6.654E+02, 0.000E+00, 7.731E+02, 0.000E+00
 6.400E+02, 5.039E+02, 0.000E+00, 6.654E+02, 0.000E+00, 7.731E+02, 0.000E+00
 6.500E+02, 5.039E+02, 0.000E+00, 6.654E+02, 0.000E+00, 7.731E+02, 0.000E+00
 6.600E+02, 5.039E+02, 0.000E+00, 6.654E+02, 0.000E+00, 7.731E+02, 0.000E+00
 6.700E+02, 5.039E+02, 0.000E+00, 6.654E+02, 0.000E+00, 7.731E+02, 0.000E+00
 6.800E+02, 5.039E+02, 0.000E+00, 6.654E+02, 0.000E+00, 7.731E+02, 0.000E+00
 6.900E+02, 5.039E+02, 0.000E+00, 6.654E+02, 0.000E+00, 7.731E+02, 0.000E+00
 7.000E+02, 5.039E+02, 0.000E+00, 6.654E+02, 0.000E+00, 7.731E+02, 0.000E+00
 7.100E+02, 5.039E+02, 0.000E+00, 6.654E+02, 0.000E+00, 7.731E+02, 0.000E+00
 7.200E+02, 5.039E+02, 0.000E+00, 6.654E+02, 0.000E+00, 7.731E+02, 0.000E+00
 7.300E+02, 5.039E+02, 0.000E+00, 6.654E+02, 0.000E+00, 7.731E+02, 0.000E+00
 7.400E+02, 5.039E+02, 0.000E+00, 6.654E+02, 0.000E+00, 7.731E+02, 0.000E+00
 7.500E+02, 5.039E+02, 0.000E+00, 6.654E+02, 0.000E+00, 7.731E+02, 0.000E+00
 7.600E+02, 5.039E+02, 0.000E+00, 6.654E+02, 0.000E+00, 7.731E+02, 0.000E+00
 7.700E+02, 5.039E+02, 0.000E+00, 6.654E+02, 0.000E+00, 7.731E+02, 0.000E+00
 7.800E+02, 5.039E+02, 0.000E+00, 6.654E+02, 0.000E+00, 7.732E+02, 0.000E+00
 7.900E+02, 5.039E+02, 0.000E+00, 6.654E+02, 0.000E+00, 7.732E+02, 0.000E+00
 7.970E+02, 5.040E+02, 0.000E+00, 6.654E+02, 0.000E+00, 7.732E+02, 0.000E+00